int_ax,ax_min,ax_max,int_ay,ay_min,ay_max,int_az,az_min,az_max,gyr_x_min,gyr_x_max,gyr_y_min,gyr_y_max,gyr_z_min,gyr_z_max,make,left,right,short,long,suggestion,file_name
82856.34325396824,-1998.0,1294.0,538035.8174603174,-1998.0,1144.0,-376347.7271825397,-1996.0,1998.0,-1088.2,212.5,-203.2,2261.0,-571.7,205.1,1,0,0,0,0,ns,1596167614
176002.09523809524,-1998.0,1998.0,716632.3968253967,-1973.0,1996.0,-88333.87301587303,-1996.0,1998.0,-285.5,406.7,-237.3,1901.9,-303.5,355.6,1,0,0,0,0,ns,1596167636
179779.9722222222,-1998.0,1468.0,681007.5138888889,-1998.0,1859.0,-40113.83333333334,-1996.0,1998.0,-494.9,145.8,-234.6,1611.8,-189.4,263.7,0,0,0,1,0,ns,1596167781
1781.6150793650784,-1998.0,1112.0,929513.6706349208,-1608.0,1950.0,145766.45634920636,-1996.0,1998.0,-500.9,179.6,-801.7,940.3,-444.2,552.7,1,0,0,0,0,ns,1596167828
-6256671.476190475,-1998.0,1980.0,1040169.8710317444,-692.0,1996.0,5606436.26984127,-1996.0,1996.0,-525.1,1912.1,-209.5,998.9,-561.0,827.8,0,0,0,1,0,ns,1596167850
-484686.625,-891.0,723.0,2948183.180555555,-502.0,1836.0,-582673.8055555554,-1397.0,1045.0,-44.8,53.2,-62.4,126.5,-56.7,34.0,1,0,0,0,0,ns,1596167890
4311.375000000001,-1998.0,1128.0,738166.5615079366,-1317.0,1044.0,115130.09523809525,-1996.0,1416.0,-269.7,737.8,-574.5,2132.9,-267.9,888.5,1,0,0,0,0,ns,1596167913
194155.85317460305,-1998.0,1588.0,1396603.2003968258,-1774.0,1709.0,941598.8214285714,-1996.0,1955.0,-227.2,1541.8,-394.5,2048.4,-163.5,275.5,0,0,0,1,0,ns,1596167936
-393473.76447158784,-1998.0,1165.0,2135264.716880341,-1756.0,1800.0,60612.12757249983,-1996.0,1998.0,-627.6,213.2,-640.1,1887.6,-340.8,429.3,1,0,0,0,0,ns,1596167964
-145668.10686943008,-1998.0,1998.0,2807734.578603752,-1776.0,1867.0,441358.8644278153,-1996.0,1886.0,-263.4,891.5,-814.1,2253.7,-368.9,473.6,1,0,0,0,0,ns,1596167991
-2063467.5555086785,-1987.0,1377.0,4754599.937218739,-750.0,1692.0,-2994970.8817100613,-1548.0,1103.0,-82.5,120.4,-104.3,95.7,-107.4,29.7,0,1,0,0,0,ns,1596168039
66896.40674603175,-1998.0,1998.0,933492.2698412698,-1998.0,1996.0,116495.29166666669,-1996.0,1851.0,-360.4,1701.9,-283.6,1821.3,-319.9,1017.6,1,0,0,0,0,ns,1596168069
-17404087.42852344,-1998.0,1258.0,26116303.09252228,-1816.0,1955.0,-15448473.007724416,-1996.0,1998.0,-222.7,1475.4,-1108.9,1317.8,-219.7,514.1,1,0,0,0,0,ns,1596168093
415558.491767917,-1998.0,1736.0,2217825.0933640245,-1118.0,1996.0,191667.9818818704,-1996.0,1998.0,-280.7,1450.9,-376.6,2293.4,-448.4,448.3,1,0,0,0,0,ns,1596168117
-265543.9126984127,-953.0,960.0,563954.7539682538,42.0,1191.0,301717.24603174604,139.0,1055.0,-92.4,45.5,-122.0,63.7,-32.2,126.7,1,0,0,0,0,ns,1596168322
-3933777.7333164695,-382.0,903.0,1497463.5365458322,311.0,1095.0,-1836757.62629994,-921.0,229.0,-46.3,57.4,-115.6,65.1,-43.4,67.2,1,0,0,0,0,ns,1596168360
-2159215.9067653855,-1998.0,1234.0,12942800.044897504,-1880.0,1915.0,-3886131.881785571,-1996.0,1998.0,-941.7,194.3,-595.0,2233.7,-929.1,437.5,1,0,0,0,0,ns,1596168382
238207.3611111111,-1998.0,1379.0,1744745.0734126982,-1497.0,1996.0,250042.628968254,-1996.0,1937.0,-418.8,500.4,-1201.3,2268.6,-1236.9,473.5,0,0,0,1,0,ns,1596168404
-2761.486111111112,-666.0,282.0,447137.65277777775,459.0,1218.0,-24493.902777777774,-178.0,676.0,-192.2,4.6,-212.8,145.1,-127.1,96.8,1,0,0,0,0,ns,1596168424
-9906.305555555547,-1998.0,1425.0,674435.5416666665,-1846.0,1996.0,269116.0,-1996.0,1998.0,-314.5,1204.3,-1073.0,2293.4,-204.7,1426.4,1,0,0,0,0,ns,1596168450
12860724.328696728,-1998.0,1998.0,-507753.81084874755,-1821.0,1996.0,-12557402.837420348,-1996.0,1998.0,-563.2,763.9,-1316.1,2291.8,-860.0,768.0,1,0,0,0,0,ns,1596168472
-11127.219187675071,-846.0,-144.0,30647.529220779223,401.0,1214.0,-3755.4561370002552,-167.0,90.0,-85.8,97.0,-91.9,4.0,-51.9,9.9,1,0,0,0,0,ns,1596168499
-23503091.64997814,-1998.0,1621.0,35283481.30232715,-897.0,1996.0,9822168.74434188,-1996.0,1998.0,-284.3,1688.7,-549.8,1755.1,-440.6,1556.5,1,0,0,0,0,ns,1596168518
254885.58333333337,-1998.0,1238.0,610571.8888888889,-1476.0,1996.0,19588.125,-1996.0,1998.0,-528.6,357.9,-394.3,2270.8,-1202.9,906.6,0,0,0,1,0,ns,1596168571
43082.032356532356,-1998.0,1809.0,659700.5589133089,-1998.0,1996.0,180347.03083028086,-1996.0,1998.0,-204.7,888.8,-291.6,1679.2,-140.9,356.5,0,1,0,0,0,ns,1596168589
1923911.615082047,-1808.0,324.0,-2203394.0964011964,-789.0,1344.0,-748195.9887859841,-1130.0,1301.0,4.4,83.4,2.8,126.0,-31.3,-4.2,1,0,0,0,0,ns,1596168623
-30776191.288551364,-1877.0,1054.0,13618639.677467614,-472.0,1504.0,-25802752.94673417,-1349.0,254.0,-174.9,182.0,-353.2,275.5,-90.6,94.8,1,0,0,0,0,ns,1596168666
-88382.80555555556,-1998.0,1843.0,840760.6607142857,-1996.0,1996.0,-68078.18849206349,-1996.0,1832.0,-517.2,540.0,-2239.3,2293.4,-1583.4,1095.5,1,0,0,0,0,ns,1596168687
-1633733.4543561884,-1922.0,1271.0,2621634.6300884928,-758.0,1980.0,-433134.6659568855,-1489.0,1244.0,-188.2,233.4,-322.6,400.0,-162.4,135.7,1,0,0,0,0,ns,1596168730
30432.78373015872,-1998.0,1634.0,839628.8174603174,-1998.0,1996.0,531608.871031746,-1996.0,1998.0,-221.2,1124.5,-1084.7,1891.1,-213.9,528.4,0,0,0,0,1,ns,1596168756
1118323.3561204688,-1998.0,1264.0,3401701.5361734927,-1998.0,1935.0,298367.25655888236,-1996.0,1998.0,-1173.6,401.3,-1674.4,2292.2,-722.4,491.8,1,0,0,0,0,ns,1596168786
-37109.82671551419,-1998.0,1124.0,322549.288497916,-555.0,1369.0,419499.16187697335,-1280.0,995.0,-42.0,71.1,-174.5,121.5,-33.1,61.1,0,1,0,0,0,ns,1596168823
-125653.6424291939,-1998.0,1998.0,757755.5789760349,-1998.0,1996.0,-67382.48899004045,-1996.0,1998.0,-388.0,1493.8,-560.3,2101.9,-157.6,464.1,0,0,0,1,0,ns,1596168849
129170.07927728613,-1998.0,1356.0,2352052.995838601,-1998.0,1996.0,115160.02379196516,-1996.0,1998.0,-215.4,1132.6,-715.4,1518.0,-752.3,294.6,1,0,0,0,0,ns,1596168879
485327.8440708742,-1998.0,1532.0,7525171.605497117,-1998.0,1996.0,-2042883.819027048,-1996.0,1874.0,-296.2,1613.7,-1323.8,1805.8,-1213.1,726.6,1,0,0,0,0,ns,1596168911
-6666740.476234895,-1998.0,1721.0,-10789489.804089677,-1896.0,1996.0,509217.98097311077,-1996.0,1998.0,-388.8,554.4,-1167.5,2188.5,-2077.1,753.9,0,0,0,1,0,ns,1596168947
359935.29788011697,-371.0,877.0,1686421.4623015872,269.0,1380.0,-461825.79072681704,-1087.0,267.0,-85.5,114.1,-120.6,101.0,-66.0,59.7,0,0,0,1,0,ns,1596168983
-89538.10795234576,-614.0,585.0,1841853.4642109245,465.0,1493.0,-518945.7360011262,-780.0,100.0,-74.9,86.3,-169.6,177.7,-69.7,77.8,1,0,0,0,0,ns,1596169028
-134446.63095238095,-1998.0,1524.0,883560.3214285716,-1167.0,1996.0,105876.95634920636,-1996.0,1998.0,-394.1,964.7,-400.4,2293.4,-1033.9,449.9,1,0,0,0,0,ns,1596169056
847313.8266190359,-1998.0,1998.0,639043.9198687156,-1998.0,1996.0,249647.8860670827,-1996.0,1937.0,-1108.1,468.3,-1109.8,2288.9,-1058.6,323.3,0,0,0,1,0,ns,1596169080
-490512.2600330054,-1998.0,1998.0,1964171.6027745209,-1998.0,1996.0,347947.7213411721,-1996.0,1998.0,-879.6,282.8,-1320.7,2291.2,-698.0,346.3,0,0,0,1,0,ns,1596169106
-6192306.539682541,-1890.0,668.0,3102938.8511904744,-425.0,1417.0,959553.3214285728,-1083.0,1234.0,-91.2,72.0,-126.9,225.0,-95.2,61.6,0,0,0,1,0,ns,1596169161
-218874.14880952387,-1998.0,1553.0,1100560.9662698414,-1284.0,1996.0,-121696.7261904762,-1996.0,1998.0,-286.3,1678.8,-411.8,1796.8,-740.5,1978.2,1,0,0,0,0,ns,1596169185
-17073060.57201392,-1998.0,1998.0,376506.3680512178,-1998.0,1996.0,-4658995.394808079,-1996.0,1917.0,-671.0,1193.1,-1126.0,2259.1,-1316.0,389.6,0,1,0,0,0,ns,1596169222
-49337.98509650071,-1998.0,1998.0,1016293.0330988456,-1970.0,1996.0,193627.54883658007,-1996.0,1998.0,-446.7,1545.2,-413.4,2266.2,-1068.4,1842.1,1,0,0,0,0,ns,1596169251
-606343.4394048512,-1998.0,1412.0,3439604.5636873483,-1293.0,1996.0,13855.84509122146,-1996.0,1998.0,-1572.2,320.5,-1971.9,2293.4,-1013.7,667.3,1,0,0,0,0,ns,1596169283
13816038.51530747,-1998.0,1427.0,5392165.7841316685,-1976.0,1996.0,-17738177.728105042,-1996.0,1998.0,-1760.8,513.5,-2176.1,2076.9,-886.6,351.8,0,0,0,0,1,ns,1596169310
-3867244.392616815,-1998.0,1026.0,4444354.2158924695,-742.0,1605.0,2781752.214795177,-591.0,1051.0,-40.4,56.2,-117.8,95.6,-66.5,79.8,0,0,0,1,0,ns,1596169361
-104954.80555555556,-1998.0,875.0,580705.25,-1626.0,1716.0,-12273.097222222219,-722.0,1630.0,-172.7,235.2,-270.0,251.7,-165.6,94.1,0,1,0,0,0,ns,1596169439
0.0,-1238.0,-1238.0,0.0,836.0,836.0,0.0,-220.0,-220.0,43.8,43.8,39.2,39.2,-3.7,-3.7,1,0,0,0,0,ns,1596169467
-18425795.126082007,-1199.0,-231.0,-33914880.96791518,1.0,864.0,-31015593.25198312,-559.0,368.0,23.9,127.6,-28.0,157.3,-68.0,18.9,0,0,0,1,0,ns,1596169515
38614713.87533921,-1600.0,-570.0,-39234504.78647074,-200.0,949.0,131001609.21526322,-764.0,58.0,-26.5,-26.5,-12.1,-12.1,-12.7,-12.7,0,1,0,0,0,ns,1596169542
-8392033.055804722,-1998.0,1677.0,-54157079.06095597,-1626.0,1996.0,2088195.545417875,-1508.0,1012.0,-469.2,315.7,-516.0,677.1,-229.7,253.0,0,0,0,1,0,ns,1596169607
-139949.3333333333,-1998.0,1998.0,720486.7916666665,-1997.0,1723.0,-54713.56944444443,-1996.0,1998.0,-343.2,968.0,-391.5,1831.2,-441.2,1009.4,1,0,0,0,0,ns,1596169626
-219472.91666666663,-1998.0,1450.0,623123.888888889,-1998.0,1996.0,-54227.388888888876,-1996.0,1998.0,-676.2,310.8,-2285.4,2066.3,-645.8,790.6,1,0,0,0,0,ns,1596169697
9856333.186407117,-1998.0,1977.0,5417969.832371642,-1998.0,1990.0,-11369319.733797373,-1996.0,1998.0,-989.8,209.2,-1417.0,2293.4,-820.3,264.3,1,0,0,0,0,ns,1596169722
-807051.9523063924,-1998.0,1240.0,2248799.363215364,-1389.0,1996.0,-643550.4178099214,-1996.0,1998.0,-1878.1,614.1,-2263.8,2292.8,-1409.5,488.2,0,0,0,0,1,ns,1596169746
4971923.659958097,-1525.0,718.0,4817037.353334165,-800.0,1569.0,2571888.6737498604,-1043.0,1033.0,-53.9,66.7,-76.3,185.0,-107.5,79.1,0,0,1,0,0,ns,1596169791
-282930.1835075493,-1998.0,1314.0,849068.0138404956,-433.0,1996.0,66943.7236256291,-1996.0,1998.0,-426.5,2033.9,-913.4,2292.2,-249.4,1928.9,0,1,0,0,0,ns,1596169812
-1802124.179396624,-1998.0,1429.0,1032498.3897065131,-1972.0,1996.0,-605436.8514346279,-1996.0,1998.0,-1551.2,384.0,-2069.6,2279.7,-1045.6,316.4,1,0,0,0,0,ns,1596169838
-637016.917032237,-1998.0,1806.0,-1746471.5773694732,-1998.0,1996.0,-395103.213930586,-1996.0,1998.0,-291.9,1543.3,-2114.7,1462.2,-88.1,986.1,1,0,0,0,0,ns,1596169863
-1087662.5138978015,-1998.0,1659.0,1971951.0707820768,-1998.0,1996.0,-155873.44574441874,-1996.0,1998.0,-547.1,859.0,-1927.3,1773.5,-1011.3,932.6,0,0,0,0,1,ns,1596169893
8295767.460401211,-1998.0,1425.0,4334443.397341606,-1307.0,1996.0,-10524425.465048604,-1996.0,875.0,-91.2,138.8,-182.3,182.4,-75.8,96.9,0,1,0,0,0,ns,1596169935
-105633.35696248195,-1998.0,1998.0,845416.4584505772,-1084.0,1996.0,43606.429563492056,-1996.0,1998.0,-460.8,498.9,-816.3,2068.8,-801.6,408.1,0,1,0,0,0,ns,1596169961
-621659.2831509997,-1998.0,1998.0,2270153.865229228,-1998.0,1996.0,-29530.860851972568,-1996.0,1998.0,-637.9,496.7,-1316.4,2290.9,-899.5,282.2,0,0,0,1,0,ns,1596169995
-11738607.974264706,-1998.0,1711.0,-691455.956535951,-1998.0,1996.0,15893942.738738833,-1996.0,1998.0,-961.9,352.1,-2214.6,1777.1,-750.7,283.2,1,0,0,0,0,ns,1596170025
-696234.0557889823,-1998.0,1998.0,1513356.1964604026,-1998.0,1940.0,-297158.3338638487,-1996.0,1998.0,-1058.9,469.4,-1468.4,2287.7,-2002.1,713.0,0,1,0,0,0,ns,1596170069
2214064.930469059,-1708.0,909.0,52135.504343051696,-792.0,1662.0,-4337979.99035702,-1136.0,948.0,-53.7,97.0,-226.5,188.1,-56.9,80.4,0,1,0,0,0,ns,1596170133
-168011.00915892672,-1883.0,1893.0,826374.2373666066,-1998.0,1996.0,-15000.675452299687,-1996.0,1998.0,-268.5,610.5,-712.1,1621.4,-634.0,302.4,1,0,0,0,0,ns,1596170159
121431.56746031748,-1998.0,1642.0,811104.8015873015,-1597.0,1996.0,119270.23015873016,-1996.0,1963.0,-298.5,1984.8,-674.8,2272.4,-124.0,1389.1,1,0,0,0,0,ns,1596170232
-30137950.79326539,-1998.0,1725.0,-11230758.881494803,-1989.0,1996.0,-4667215.482713829,-1996.0,1995.0,-338.1,2095.1,-505.5,2268.2,-236.1,417.3,1,0,0,0,0,ns,1596170255
4787762.855517,-1998.0,1903.0,-14444518.041746678,-1996.0,1996.0,988563.0257682665,-1996.0,1998.0,-1450.7,217.6,-1901.4,2292.2,-1552.5,539.1,0,0,0,0,1,ns,1596170282
-797352.8058543126,-1998.0,1706.0,2493864.496786701,-1918.0,1989.0,-773119.3470960802,-1996.0,1998.0,-1480.3,474.1,-1565.4,2023.4,-912.3,341.7,1,0,0,0,0,ns,1596170305
-1137516.5138888892,-1998.0,1998.0,6099613.972222224,-1998.0,1996.0,-3653982.6944444436,-1996.0,1998.0,-1496.1,366.9,-1798.5,2261.4,-798.6,370.2,0,0,0,0,1,ns,1596170336
-212208.45039682547,-1941.0,1608.0,1074356.0496031744,-950.0,1751.0,-389350.3412698413,-1610.0,1615.0,-248.0,218.8,-457.5,368.7,-224.9,343.9,0,1,0,0,0,ns,1596170371
-1313075.2938340334,-1891.0,666.0,1510544.70302521,-556.0,1494.0,-1275862.697152194,-1082.0,268.0,-176.3,267.4,-218.5,409.5,-187.6,104.3,1,0,0,0,0,ns,1596170422
-153970.8333333333,-1998.0,1622.0,729133.0138888889,-1998.0,1996.0,-236696.45833333328,-1996.0,1998.0,-1945.9,133.2,-2293.4,2275.8,-885.4,300.3,1,0,0,0,0,ns,1596170446
-6336342.644024277,-1998.0,865.0,3048144.138888888,-1020.0,1939.0,2793402.03513072,-1212.0,1701.0,-170.1,387.3,-743.6,251.4,-137.2,375.2,0,0,0,1,0,ns,1596170501
57612.81944444443,-1998.0,1998.0,1424536.7222222218,-1326.0,1996.0,-531926.2083333333,-1996.0,1998.0,-314.2,2108.4,-957.6,1937.8,-192.7,612.2,0,1,0,0,0,ns,1596170532
-1012721.4110474396,-1672.0,668.0,1914786.129592192,-195.0,1585.0,-589849.7997980649,-846.0,272.0,-191.1,148.5,-152.3,256.4,-90.3,108.0,0,0,0,0,1,ns,1596170573
-54988.60985930736,-1998.0,1998.0,852258.4586749189,-1998.0,1996.0,-222088.54798205267,-1996.0,1998.0,-356.7,1793.3,-1780.0,1877.4,-167.6,958.8,1,0,0,0,0,ns,1596170601
-1734586.1227398932,-1998.0,1998.0,2866140.3036726825,-1998.0,1996.0,-1079542.6751443823,-1996.0,1998.0,-314.5,1939.7,-1470.8,1687.4,-187.4,1169.9,0,0,0,0,1,ns,1596170628
31343.60227554563,-1437.0,711.0,2924794.6369822696,-1178.0,1583.0,-1261907.9690755212,-1419.0,1092.0,-44.1,64.2,-145.7,154.2,-97.2,73.6,0,1,0,0,0,ns,1596170671
-713184.5277777779,-1877.0,959.0,1148049.6388888888,-1763.0,1976.0,144647.94444444447,-1855.0,1394.0,-210.9,498.4,-494.8,530.7,-154.4,144.2,0,1,0,0,0,ns,1596170731
-935200.2297616126,-1644.0,847.0,1393886.3925603018,-377.0,1651.0,-534534.2933906382,-1160.0,34.0,-106.6,147.9,-299.7,350.0,-82.1,110.8,0,1,0,0,0,ns,1596170782
-148653.14947399413,-1998.0,1884.0,896454.4023228609,-1189.0,1996.0,-134126.39082261693,-1996.0,1998.0,-379.0,2015.4,-1609.2,2140.1,-140.6,566.6,0,1,0,0,0,ns,1596170839
-445311.3404798436,-1998.0,1998.0,1598863.0453166603,-1998.0,1988.0,-723335.5965345246,-1996.0,1998.0,-1474.0,372.8,-1219.3,2271.0,-1402.1,483.2,1,0,0,0,0,ns,1596170869
-164045.81255835667,-1998.0,1998.0,935090.8803688141,-1998.0,1996.0,-92311.52929505132,-1996.0,1998.0,-786.3,1816.0,-2162.0,1164.3,-479.1,1927.8,0,0,1,0,0,ns,1596170922
-7753288.371353093,-1998.0,1998.0,2787413.553705766,-1678.0,1942.0,3107455.5299796504,-1996.0,1983.0,-470.8,1162.5,-2142.4,2092.4,-1430.1,1045.0,0,0,0,0,1,ns,1596170953
2030453.2559895068,-1363.0,1874.0,-132752833.16534036,-365.0,1996.0,25498013.06305173,-1996.0,1032.0,-212.5,720.6,-370.3,308.1,-130.0,152.3,0,0,0,0,1,ns,1596171008
-275090.71509216586,-1998.0,1998.0,1041078.4446396569,-1367.0,1996.0,-52453.250848054275,-1996.0,1998.0,-405.6,2113.4,-909.2,2293.4,-153.9,877.1,1,0,0,0,0,ns,1596171032
0.0,-471.0,-471.0,0.0,826.0,826.0,0.0,-228.0,-228.0,-0.2,-0.2,1.0,1.0,0.8,0.8,1,0,0,0,0,ns,1596172554
84650000.2084939,-1998.0,1537.0,-35717252.949750416,-1998.0,1996.0,5092897.634894781,-1996.0,1998.0,-1630.4,545.2,-995.3,2165.6,-857.0,502.9,1,0,0,0,0,ns,1596172607
142256.88428059398,-1998.0,1664.0,693353.9486687148,-1307.0,1993.0,-151109.04326676906,-1996.0,1998.0,-350.6,2165.1,-451.2,1612.6,-926.1,1568.8,1,0,0,0,0,ns,1596172626
-44637.35119047619,-1988.0,941.0,11033.623168498169,67.0,1538.0,-19635.8489010989,-1810.0,-138.0,-10.0,201.2,-203.7,31.9,-122.0,106.2,0,0,0,1,0,ns,1596172651
60730561.53692547,-1449.0,-685.0,-20857014.02712002,-140.0,390.0,29382293.662211124,-685.0,41.0,-42.9,87.5,-68.3,96.1,-53.9,50.0,1,0,0,0,0,ns,1596172707
-292966.25396825396,-1998.0,1186.0,576174.8035714285,-1103.0,1933.0,90762.60912698411,-1996.0,1998.0,-533.7,2083.4,-2262.9,1439.6,-1052.9,1777.2,1,0,0,0,0,ns,1596172728
-587674.9166666666,-1998.0,1631.0,1596963.4444444445,-1998.0,1996.0,-200952.18055555556,-1996.0,1998.0,-481.3,513.0,-628.7,1588.5,-1206.4,392.6,1,0,0,0,0,ns,1596172748
-4310911.59403564,-1998.0,1591.0,1270356.6353339322,-1998.0,1996.0,5551241.071716087,-1996.0,1998.0,-1764.8,518.2,-2239.2,2172.5,-837.2,331.9,1,0,0,0,0,ns,1596172768
-16336967.144330898,-1998.0,953.0,-20951495.19145244,-1003.0,1996.0,-13039213.919097554,-1996.0,929.0,-240.5,663.3,-302.9,500.5,-244.7,420.1,1,0,0,0,0,ns,1596172818
112303.97124183006,-1998.0,1129.0,501086.3223856209,-1998.0,1415.0,-380633.70457516337,-1996.0,1998.0,-1628.0,421.1,-2232.8,1892.4,-605.4,703.2,1,0,0,0,0,ns,1596172842
-242013.75299856786,-1998.0,1779.0,2098125.872389307,-1998.0,1996.0,794705.594850221,-1996.0,1998.0,-315.9,1424.7,-322.1,1822.9,-829.0,399.9,0,0,0,1,0,ns,1596172863
-3011390.336879787,-1998.0,585.0,1134387.5393717391,-964.0,1996.0,-239510.79370629386,-1527.0,1998.0,-183.1,684.2,-372.3,337.8,-211.8,296.5,0,0,1,0,0,ns,1596172904
-102755.60643424036,-1998.0,1169.0,589042.1112528344,-1998.0,1996.0,37821.29754818593,-1996.0,1998.0,-544.3,369.8,-2286.2,1863.0,-582.6,489.1,0,0,1,0,0,ns,1596172923
-4416100.830840848,-1998.0,1014.0,1290080.0290000602,-906.0,1996.0,1494295.9919211837,-1711.0,1651.0,-720.5,478.1,-323.8,407.4,-191.7,354.0,0,0,0,1,0,ns,1596172963
-103588.50404606287,-1998.0,1107.0,970487.6325863679,-1998.0,1996.0,23400.736539060075,-1996.0,1900.0,-455.0,432.5,-1116.7,2098.1,-633.8,401.8,1,0,0,0,0,ns,1596172994
-123862055.54433465,-1998.0,1099.0,113210879.31815496,-1998.0,1996.0,26479619.573782988,-1996.0,1993.0,-1522.5,456.4,-2293.4,2232.2,-1537.4,541.8,0,0,0,0,1,ns,1596173025
-5231817.790537202,-1998.0,1312.0,2634192.5437903358,-1998.0,1996.0,2134538.814733529,-1996.0,1998.0,-1041.1,510.7,-1648.6,2075.4,-763.5,671.6,1,0,0,0,0,ns,1596173055
-1129064.1445588183,-1998.0,1195.0,1512699.5642993615,-1733.0,1996.0,6435240.611941306,-1996.0,1998.0,-1639.6,358.2,-1036.5,2246.3,-521.5,644.2,1,0,0,0,0,ns,1596173089
-86737.76904761903,-1998.0,1414.0,713710.469047619,-1998.0,1996.0,-43096.959523809506,-1996.0,1759.0,-765.3,1253.9,-1786.3,2255.8,-1306.4,374.8,1,0,0,0,0,ns,1596173118
-466027.9213807025,-1998.0,1455.0,3384637.239817908,-1330.0,1996.0,-627958.4455574807,-1554.0,1452.0,-506.4,206.5,-194.6,344.8,-271.3,111.3,1,0,0,0,0,ns,1596173161
-344222.3129557533,-1998.0,1398.0,853771.2222222221,-1998.0,1996.0,-3917.6626035100726,-1996.0,1808.0,-1561.9,678.0,-1433.8,2245.6,-1017.5,614.4,1,0,0,0,0,ns,1596173184
-293891.03222337243,-1998.0,1366.0,2103921.222831838,-1998.0,1996.0,-59398.74627904302,-1996.0,1998.0,-949.7,381.5,-2267.3,2105.1,-333.9,310.2,0,0,0,0,1,ns,1596173216
-4490088.1265368555,-1998.0,1330.0,983459.1804274323,-1998.0,1996.0,3783408.408980624,-1996.0,1983.0,-457.1,1486.4,-257.8,2182.6,-1155.1,446.6,0,0,1,0,0,ns,1596173240
-645512.8440908925,-1998.0,1313.0,1699330.558983017,-1998.0,1967.0,-469737.17478490155,-1996.0,1998.0,-1101.8,468.8,-1849.6,2288.4,-1185.1,715.4,0,0,1,0,0,ns,1596173269
-1469701.2339522864,-1998.0,1653.0,2969920.502977013,-1998.0,1996.0,-679663.6788484296,-1996.0,1998.0,-2078.2,393.0,-583.7,2279.5,-1212.4,603.6,1,0,0,0,0,ns,1596173303
9239063.591248779,-1998.0,1688.0,-4016708.003320994,-1764.0,1996.0,-14550916.456600146,-1996.0,1998.0,-838.9,1330.1,-2293.4,2175.3,-1052.1,1823.2,0,0,0,0,1,ns,1596173330
-3137014.4234651765,-1998.0,1457.0,2549108.986157364,-1843.0,1996.0,-1857521.0158563603,-1996.0,1998.0,-307.0,1530.6,-1757.3,2234.5,-1296.1,538.2,0,0,0,0,1,ns,1596173360
-556877.0712041948,-1998.0,1325.0,1952960.304382388,-1966.0,1996.0,-506278.988104212,-1996.0,1998.0,-506.5,2239.0,-1348.5,1269.1,-1044.4,1078.4,0,0,1,0,0,ns,1596173387
-8529040.313988358,-1998.0,1152.0,5123837.6959197875,-1998.0,1996.0,-6209016.542153931,-1996.0,1998.0,-1389.0,530.9,-2293.4,1981.7,-950.8,914.3,0,0,1,0,0,ns,1596173414
2306108.3294023178,-1998.0,1508.0,2182070.2440612568,-893.0,1996.0,-3582098.2726618024,-1996.0,1998.0,-430.3,1365.3,-845.6,1573.7,-610.9,516.7,1,0,0,0,0,ns,1596173440
2193269.803642918,-1998.0,1787.0,7564516.539056228,-1998.0,1996.0,-207887.114435784,-1996.0,1998.0,-885.1,526.8,-1959.5,2293.4,-1239.4,556.0,0,0,0,1,0,ns,1596173466
2257704.107511062,-1998.0,304.0,2004225.8254243587,-1125.0,1440.0,304332.10640169244,-1963.0,1004.0,-217.9,165.4,-432.6,447.5,-253.1,357.3,0,0,0,1,0,ns,1596173524
-490774.8488409738,-1998.0,1316.0,1160425.8694554432,-1998.0,1996.0,57309.61707299549,-1996.0,1998.0,-1147.4,487.4,-2167.4,2293.4,-1586.2,487.0,1,0,0,0,0,ns,1596173552
-800727.678158275,-1998.0,1495.0,218981.36616889172,-1944.0,1996.0,1749306.1980126847,-1996.0,1998.0,-791.6,1548.0,-2293.4,1368.3,-1030.4,500.5,1,0,0,0,0,ns,1596173576
1001962.8671962379,-1998.0,1656.0,-1852618.6734863566,-1543.0,1996.0,2004353.53039337,-1996.0,1240.0,-330.1,413.6,-1575.9,592.9,-392.0,370.0,1,0,0,0,0,ns,1596173619
-352338.5089763419,-1998.0,1943.0,1112529.0293531748,-1998.0,1594.0,-260736.7501509599,-1996.0,1998.0,-323.8,1846.5,-1080.6,2273.3,-505.8,1148.2,0,0,0,0,1,ns,1596173651
-2196246.9406109033,-1998.0,1028.0,5923806.386113991,-1246.0,1847.0,-3150199.89899862,-1648.0,1102.0,-228.9,503.7,-793.2,258.3,-102.2,212.5,0,1,0,0,0,ns,1596173687
-462168.535319395,-1998.0,1190.0,1510867.4993876694,-1998.0,1980.0,-589303.3124418544,-1996.0,1998.0,-1446.1,591.0,-1478.3,2270.8,-899.0,434.4,0,0,1,0,0,ns,1596173721
-232474.31586163735,-1998.0,1255.0,784851.248506571,-1998.0,1996.0,-333112.6275160721,-1996.0,1998.0,-816.5,829.9,-2262.5,2211.0,-1527.2,1299.1,1,0,0,0,0,ns,1596173750
-1845358.2291109296,-1998.0,1558.0,2636292.130185253,-1998.0,1996.0,71583.93854349137,-1996.0,1973.0,-1132.3,1756.3,-1698.3,2263.9,-997.5,427.2,1,0,0,0,0,ns,1596173786
-5953611.696470123,-1998.0,1085.0,12563266.624474242,-1968.0,1996.0,-8835761.89640782,-1996.0,1998.0,-387.1,1412.6,-1855.5,2292.8,-736.1,491.0,0,0,1,0,0,ns,1596173814
-4369455.172884935,-1998.0,1174.0,17281887.925045867,-908.0,1884.0,-1617345.9823172432,-1996.0,1093.0,-378.2,238.2,-580.9,623.0,-165.4,262.2,1,0,0,0,0,ns,1596173860
-262087.4165518824,-1998.0,1246.0,1115591.6372655123,-1998.0,1915.0,11808.430080020971,-1996.0,1998.0,-956.1,235.1,-2266.8,2281.8,-1017.5,959.6,0,0,0,1,0,ns,1596173889
2613302.954542816,-1998.0,1084.0,-955377.0493442959,-946.0,1996.0,-16390955.137853019,-1996.0,1987.0,-318.6,1383.8,-993.0,1849.0,-611.3,1189.8,0,0,1,0,0,ns,1596173929
-429455.7208605855,-1998.0,974.0,1109448.8334900232,-605.0,1960.0,-184424.0813170277,-1996.0,1998.0,-414.8,1731.5,-794.1,2266.0,-1067.6,1422.1,1,0,0,0,0,ns,1596173958
-984123.8376334361,-1998.0,1767.0,2759017.50725965,-1100.0,1996.0,-856947.7249702167,-1996.0,1998.0,-347.9,597.0,-410.2,2142.2,-1119.7,432.6,1,0,0,0,0,ns,1596173998
9798707.385620566,-1998.0,723.0,-3562719.545359928,-416.0,1996.0,-5883422.6199480705,-1937.0,953.0,-254.9,286.7,-376.8,303.6,-82.9,185.2,0,0,1,0,0,ns,1596174068
-532809.7627516403,-1998.0,1124.0,913551.3087368847,-1998.0,1996.0,-19462.1966197858,-1996.0,1990.0,-444.3,1577.8,-741.5,1925.4,-563.6,579.8,1,0,0,0,0,ns,1596174102
-1794031.9601645237,-1998.0,1584.0,3543151.121839905,-1998.0,1996.0,377862.7319385513,-1996.0,1998.0,-1292.2,292.4,-1268.8,2030.4,-892.5,1032.7,0,0,0,1,0,ns,1596174131
-57866589.4860829,-1998.0,1245.0,6447917.804057206,-1775.0,1996.0,40637284.50401265,-1996.0,1998.0,-1574.0,317.3,-1097.1,2293.4,-1176.8,629.3,0,0,0,1,0,ns,1596174179
-232845.80447072914,-1998.0,1253.0,1220395.6236758386,-1998.0,1996.0,21527.14650729216,-1996.0,1998.0,-990.9,451.7,-2286.4,2293.4,-1418.1,849.5,1,0,0,0,0,ns,1596174206
-1346738.6862473213,-1998.0,903.0,-513689.7140194252,-1998.0,1996.0,575684.5319527296,-1996.0,1998.0,-1675.6,361.2,-632.0,2252.8,-678.0,639.3,0,0,0,0,1,ns,1596174235
-13164496.652607065,-1998.0,1772.0,22984643.494872693,-1998.0,1996.0,2612602.367915201,-1996.0,1998.0,-706.6,2138.9,-2142.7,1508.2,-1015.4,576.2,0,0,0,1,0,ns,1596174274
9808989.699716708,-1998.0,1403.0,1116145.2579921319,-1789.0,1996.0,-22325570.23520863,-1996.0,1977.0,-353.7,2066.4,-976.0,1836.4,-361.5,791.0,1,0,0,0,0,ns,1596174305
-21590954.500147708,-1998.0,1071.0,-4890970.979400527,-1953.0,1996.0,-13135064.475579975,-1996.0,1998.0,-1037.1,284.6,-2293.4,2264.0,-925.8,452.2,0,0,0,0,1,ns,1596174339
-379190.9236918498,-1998.0,1391.0,81400.1974350342,-1998.0,1996.0,-309005.79383009055,-1996.0,1998.0,-816.4,208.6,-2293.4,2270.1,-247.4,698.8,0,0,1,0,0,ns,1596174366
64272129.25687932,-1998.0,1998.0,4856567.749966101,-1998.0,1996.0,-96604778.5495953,-1996.0,1998.0,-509.1,936.3,-1154.9,2002.4,-794.7,507.5,1,0,0,0,0,ns,1596174413
-4444370.327651662,-1998.0,1017.0,7801603.622504222,-1998.0,1996.0,7952770.373099164,-1996.0,1998.0,-577.8,512.6,-2293.4,2207.8,-489.7,668.3,0,0,1,0,0,ns,1596174453
-3552771.949873711,-1998.0,1173.0,1006967.1413987366,-1998.0,1949.0,-375525.10258321,-1996.0,1998.0,-528.5,1456.0,-663.8,1725.2,-819.4,653.6,0,0,0,0,1,ns,1596174486
-4424055.9734414695,-1998.0,1160.0,-662096.4306821421,-1277.0,1663.0,563061.8436000138,-1996.0,1998.0,-467.1,1395.5,-2293.4,2249.7,-1332.3,1530.6,1,0,0,0,0,ns,1596174519
-8354276.169083192,-1998.0,1998.0,182421.53262501862,-1992.0,1996.0,1183184.6116678214,-1996.0,1998.0,-488.8,1788.1,-885.6,1359.9,-961.1,1484.7,0,0,0,0,1,ns,1596174554
-696346.8479279554,-1998.0,1375.0,2468495.471558642,-1998.0,1996.0,107608.11506540602,-1996.0,1998.0,-1572.3,809.4,-2292.2,2270.8,-639.9,348.3,0,0,0,1,0,ns,1596174591
-2450340.944444459,-1998.0,1998.0,-641046.2916666686,-1998.0,1996.0,-1544381.9583333384,-1996.0,1998.0,-489.0,796.2,-751.9,2256.8,-1247.1,649.4,0,0,0,1,0,ns,1596174622
-28850556.73324723,-1998.0,1081.0,-3056246.524689272,-1918.0,1996.0,17925654.908617847,-1996.0,1998.0,-1852.9,479.0,-1557.5,2279.2,-507.0,776.7,1,0,0,0,0,ns,1596174654
933641.3118772404,-1998.0,1340.0,4757869.107171103,-1026.0,1949.0,-9066078.773897776,-1996.0,1998.0,-449.2,970.2,-2218.0,2232.1,-592.0,1608.6,0,0,0,1,0,ns,1596174692
6522659.2238520365,-1998.0,1907.0,3537820.0726220114,-1998.0,1990.0,-693938.7560903628,-1996.0,1853.0,-483.6,333.4,-2286.0,2293.4,-526.1,707.4,1,0,0,0,0,ns,1596174723
-3116976.416021286,-1998.0,970.0,10704103.283849714,-1998.0,1967.0,-925662.5118189122,-1996.0,1998.0,-489.0,1918.3,-2276.7,1171.6,-640.1,1002.1,1,0,0,0,0,ns,1596174758
-31032.294019996712,-1998.0,1352.0,2109111.0458699907,-1998.0,1996.0,-3257438.9243702013,-1996.0,1998.0,-982.8,262.7,-2292.2,1999.6,-1019.2,834.6,0,0,0,1,0,ns,1596174789
-3077023.381447162,-1998.0,1387.0,2225944.868729556,-1954.0,1996.0,-720776.522782719,-1996.0,1941.0,-1234.2,1338.8,-1708.0,2293.4,-943.7,852.4,1,0,0,0,0,ns,1596174835
8549208.702130068,-1998.0,1785.0,1951368.1237622835,-1414.0,1996.0,-60393317.00623736,-1996.0,1998.0,-507.1,395.6,-1106.9,2047.9,-718.2,269.6,1,0,0,0,0,ns,1596174871
-1922379.9673775285,-1998.0,1519.0,1656459.0451824581,-1998.0,1996.0,124032.63660020928,-1996.0,1998.0,-924.1,2231.6,-1080.3,1421.9,-1375.3,1771.0,0,0,1,0,0,ns,1596174908
-33193.85682191764,-1998.0,1435.0,4405379.870625523,-1998.0,1996.0,-1953090.6697138075,-1996.0,1998.0,-1205.9,535.7,-1513.6,2286.2,-1064.8,385.9,1,0,0,0,0,ns,1596174944
31765192.7671577,-1998.0,1276.0,8381313.761987835,-1601.0,1996.0,-30970564.396288615,-1996.0,1998.0,-288.8,1700.7,-546.4,2051.2,-991.2,1994.6,1,0,0,0,0,ns,1596174977
4389685.440476197,-1998.0,1025.0,-5834333.718253959,-1998.0,1975.0,4084281.708333333,-1996.0,1998.0,-1405.4,407.2,-1283.8,2293.4,-692.6,556.7,0,0,1,0,0,ns,1596175013
-458716.9976318112,-1998.0,1121.0,1841635.710760636,-1998.0,1996.0,-3718254.8981950674,-1996.0,1998.0,-2056.3,810.1,-1189.3,2293.4,-633.6,542.1,1,0,0,0,0,ns,1596175047
-15039061.279181264,-1998.0,1618.0,-1162840.271471891,-1500.0,1988.0,8706791.833202288,-1996.0,1998.0,-1019.3,1702.1,-2014.6,1722.6,-952.8,944.5,0,0,1,0,0,ns,1596175083
1263591.0752463373,-1998.0,1354.0,6657558.497746617,-1499.0,1968.0,-5804721.081571812,-1996.0,1998.0,-1171.5,619.2,-1380.7,2293.4,-994.5,355.0,1,0,0,0,0,ns,1596175118
11674215.649961095,-1998.0,1191.0,9868285.44025742,-1998.0,1996.0,-3300476.6389192757,-1996.0,1998.0,-736.4,538.8,-2293.4,2063.3,-1117.8,431.6,0,0,0,0,1,ns,1596175156
-30554192.888453044,-1998.0,1354.0,1090763.8334718538,-1945.0,1914.0,17671332.995377466,-1996.0,1998.0,-669.2,343.5,-1181.5,2286.9,-1025.7,650.2,0,0,0,1,0,ns,1596175197
-7107604.484713117,-1998.0,1369.0,-74148.98161952454,-1619.0,1996.0,-11500044.683787249,-1996.0,1998.0,-465.9,1105.3,-1821.8,2290.2,-1312.9,1695.0,1,0,0,0,0,ns,1596175232
6470152.346511688,-1998.0,1316.0,716892.6438531117,-1998.0,1993.0,5197739.524214271,-1996.0,1998.0,-1086.1,236.9,-2293.4,2263.9,-743.1,828.2,0,1,0,0,0,ns,1596175266
-4748406.305362016,-1998.0,1479.0,7799315.11041859,-1998.0,1996.0,7406159.2584831845,-1996.0,1998.0,-649.8,890.5,-1529.0,2274.2,-553.8,272.1,1,0,0,0,0,ns,1596175306
-28027157.04145575,-1998.0,1503.0,10271594.973365502,-1615.0,1996.0,7817318.376583971,-1996.0,1998.0,-1245.7,800.0,-1478.3,2268.8,-823.9,574.4,1,0,0,0,0,ns,1596175343
706100.6443093027,-1998.0,1494.0,3651118.5033868393,-1948.0,1996.0,-1600989.1768621982,-1996.0,1998.0,-1557.7,440.7,-2288.8,1522.6,-1244.0,468.0,0,0,0,1,0,ns,1596175386
-21502521.910738554,-1651.0,484.0,8334274.911524164,-328.0,1974.0,-47977167.64101373,-1368.0,806.0,-140.6,125.8,-260.7,286.1,-124.2,105.8,1,0,0,0,0,ns,1596175455
-179620.1010542394,-1998.0,1092.0,1749769.7817226013,-328.0,1996.0,-164116.53037470195,-1996.0,1998.0,-300.3,718.9,-1331.8,1956.5,-690.4,320.4,1,0,0,0,0,ns,1596175492
-3960259.7496953253,-1998.0,1297.0,5453575.053670271,-1953.0,1996.0,1842959.689514388,-1996.0,1998.0,-1303.9,233.6,-2251.1,2045.1,-842.7,249.9,0,0,0,1,0,ns,1596175525
16042503.637444722,-1998.0,1224.0,12211387.290159337,-1940.0,1996.0,-9131150.874848206,-1996.0,1998.0,-608.0,346.3,-2293.4,2293.4,-436.3,736.0,1,0,0,0,0,ns,1596175575
-253890.78450684424,-1998.0,1233.0,1305864.9671796167,-1998.0,1442.0,35118.442042225666,-1996.0,1998.0,-1111.9,426.2,-2293.4,2027.6,-777.6,1006.6,1,0,0,0,0,ns,1596175612
398492.8661844132,-1998.0,1108.0,-4198790.099667875,-1998.0,1995.0,13361467.013479242,-1996.0,1998.0,-1245.7,503.5,-2293.4,2074.8,-950.6,433.2,1,0,0,0,0,ns,1596175652
-28226725.091439016,-1998.0,1166.0,1434713.2862827433,-1148.0,1762.0,-7963490.492449584,-1996.0,1998.0,-674.4,2179.3,-2158.5,1288.8,-979.5,1695.2,0,0,0,0,1,ns,1596175692
-18801722.46450147,-1998.0,1527.0,1553310.8630825058,-1398.0,1996.0,-2676379.6195942503,-1996.0,1957.0,-256.9,2025.7,-883.4,2094.8,-849.2,1742.6,1,0,0,0,0,ns,1596175729
-9980743.49796021,-1998.0,1045.0,1769139.9277680984,-1985.0,1587.0,-7403758.815019433,-1996.0,1998.0,-543.4,1904.5,-2286.1,2041.5,-1244.3,1935.4,1,0,0,0,0,ns,1596175768
2425092.8765347623,-1998.0,1961.0,5476779.294476677,-1665.0,1996.0,-14382318.966957105,-1996.0,1998.0,-703.2,1582.2,-1361.4,2140.1,-1216.8,1733.4,1,0,0,0,0,ns,1596175806
-23312733.90857482,-1998.0,1342.0,2999332.345887457,-1998.0,1996.0,1890008.3439872526,-1996.0,1870.0,-1273.0,565.1,-1425.7,2290.2,-415.5,244.4,0,0,0,1,0,ns,1596175842
21912079.552266683,-1998.0,1238.0,-27312452.688102737,-1520.0,1996.0,-11529292.998697143,-1996.0,1998.0,-1893.8,169.1,-2293.4,1771.1,-617.2,267.8,0,0,1,0,0,ns,1596175879
14893454.90712276,-1998.0,1998.0,3368920.4616257944,-1998.0,1996.0,5125023.032761928,-1996.0,1998.0,-516.8,2232.0,-970.8,1043.9,-1470.7,1536.5,1,0,0,0,0,ns,1596175921
-12687939.761904746,-1998.0,1512.0,-3440115.5297619263,-1124.0,1996.0,7869024.472222222,-1996.0,1998.0,-514.3,1947.6,-545.8,2185.2,-325.8,1252.3,0,1,0,0,0,ns,1596175961
-46977233.56990071,-1998.0,1390.0,11926079.139875915,-1946.0,1995.0,22122480.72890102,-1996.0,1946.0,-308.1,858.2,-2253.0,2293.4,-338.7,536.4,0,0,0,1,0,ns,1596176017
-362884.44121784385,-1998.0,1863.0,1734862.8915590285,-1933.0,1996.0,-402052.55944523786,-1996.0,1998.0,-1706.6,449.8,-320.0,2290.8,-882.5,359.5,1,0,0,0,0,ns,1596176054
